Client Name;AL HUDAYRIYAT ISLAND PDA ENABLING WORKS;C2;C3
Job Number;HUDAYRIYAT;;convert_hud_to_csv
Sounding Number;PRE-HUD-N21d;;
Cone Number;S15CFIIP.S19528;;
Location;HUDAYRIYAT;;
Operator;SHANAVAS;;
Date;2022-06-19 00:00:00;;
Start Time;19:13:00;;
Time at penetration;19:17:15;;
Total time taken;00:04:15;;
Assumed GWL:;0;;
Reference level;;;
groundlvl;2.02;;
Pre-Drill:;0;;
Penetration Depth;5.38;;
Remarks;;;
Easting;234892.325;;
Northing;2701584.446;;
aratio;0.8;;
Beta Factor;1;;
;;;
;;;
;;;
Depth (m);qc (MPa);fs (MPa);u (MPa)
0.0;0.0;0.0;0.0
0.01;0.020900000000000002;0.0;-0.0001
0.02;0.188;0.0002;0.0
0.03;0.6725;0.0004;0.0
0.04;0.6892;0.0008;0.0
0.05;1.4745000000000001;0.0016;0.0
0.06;3.2874000000000003;0.0031000000000000003;-0.0001
0.07;3.4754;0.006200000000000001;-0.0001
0.08;3.5631000000000004;0.0125;-0.0001
0.09;4.4946;0.025;-0.0001
0.1;5.4428;0.0279;0.0
0.11;8.4962;0.0308;0.0
0.12;10.8781;0.0339;0.0
0.13;13.3292;0.037000000000000005;0.0
0.14;15.9967;0.0398;0.0
0.15;20.3046;0.0425;0.0001
0.16;21.8565;0.0439;0.0
0.17;22.5198;0.0471;-0.0001
0.18;22.2904;0.0536;-0.0002
0.19;22.5115;0.0597;-0.0002
0.2;22.4405;0.06720000000000001;-0.0002
0.21;22.247700000000002;0.0747;-0.0002
0.22;22.1568;0.0747;-0.0002
0.23;22.1718;0.0748;-0.0002
0.24;22.1868;0.07490000000000001;-0.00030000000000000003
0.25;22.2361;0.0753;-0.00030000000000000003
0.26;22.8118;0.0763;-0.00030000000000000003
0.27;23.083000000000002;0.0814;-0.00030000000000000003
0.28;23.387600000000003;0.0805;-0.00030000000000000003
0.29;23.5002;0.1078;-0.0002
0.3;24.5807;0.11660000000000001;-0.0002
0.31;24.6266;0.1254;-0.0002
0.32;24.2803;0.1254;-0.0002
0.33;23.1414;0.1303;-0.0001
0.34;22.544800000000002;0.15960000000000002;-0.0001
0.35;21.514400000000002;0.1693;-0.0001
0.36;21.0638;0.1791;-0.0001
0.37;21.0138;0.1794;-0.0001
0.38;21.1222;0.17980000000000002;-0.0001
0.39;20.6508;0.17980000000000002;-0.0001
0.4;19.900100000000002;0.17980000000000002;0.0
0.41;18.3063;0.17980000000000002;0.0
0.42;18.3063;0.1779;0.0001
0.43;16.1964;0.15480000000000002;0.0
0.44;16.1099;0.1317;0.0
0.45;16.072400000000002;0.1131;-0.0001
0.46;16.098000000000003;0.09870000000000001;-0.0001
0.47;16.1235;0.0931;-0.0001
0.48;17.390800000000002;0.08750000000000001;-0.0002
0.49;20.2295;0.0845;-0.0002
0.5;22.782600000000002;0.08320000000000001;-0.00030000000000000003
0.51;25.1398;0.08310000000000001;-0.0005
0.52;27.079700000000003;0.0833;-0.0006000000000000001
0.53;26.983700000000002;0.0834;-0.0007
0.54;26.989600000000003;0.0884;0.0002
0.55;26.9955;0.11030000000000001;-0.0008
0.56;27.192800000000002;0.1148;-0.0011
0.57;27.680400000000002;0.1193;-0.0012000000000000001
0.58;29.2908;0.13;-0.0011
0.59;30.563200000000002;0.1408;-0.0011
0.6;30.4798;0.1573;-0.0009000000000000001
0.61;30.959500000000002;0.1573;-0.0006000000000000001
0.62;32.0484;0.1794;-0.0006000000000000001
0.63;32.0484;0.1859;-0.00030000000000000003
0.64;33.2416;0.1874;-0.0009000000000000001
0.65;34.0175;0.1869;-0.0011
0.66;33.35;0.1864;-0.0012000000000000001
0.67;33.35;0.1791;-0.0012000000000000001
0.68;32.5615;0.1716;-0.0012000000000000001
0.69;31.118100000000002;0.17020000000000002;-0.0008
0.7;30.1502;0.1706;-0.0008
0.71;30.1502;0.1709;-0.0009000000000000001
0.72;28.948700000000002;0.1721;-0.0054
0.73;28.9026;0.19160000000000002;-0.009600000000000001
0.74;28.8927;0.2078;-0.0094
0.75;28.9329;0.2092;-0.0092
0.76;28.973100000000002;0.2092;-0.0088
0.77;29.4451;0.2092;-0.008
0.78;30.0959;0.2089;-0.008
0.79;30.0959;0.2082;-0.004
0.8;31.1306;0.1857;-0.006200000000000001
0.81;31.693800000000003;0.1212;-0.0041
0.82;31.773100000000003;0.12050000000000001;-0.0041
0.83;31.773100000000003;0.1153;-0.0032
0.84;31.0138;0.10790000000000001;-0.0023
0.85;28.064300000000003;0.10740000000000001;-0.0023
0.86;27.5136;0.10310000000000001;-0.0024000000000000002
0.87;27.5136;0.0988;-0.0025
0.88;27.3133;0.098;-0.0024000000000000002
0.89;26.6875;0.09720000000000001;-0.0024000000000000002
0.9;24.539;0.0855;-0.0015
0.91;23.625400000000003;0.0844;-0.0024000000000000002
0.92;23.1685;0.0844;-0.0024000000000000002
0.93;23.1049;0.0845;-0.0024000000000000002
0.94;23.0413;0.0852;-0.0024000000000000002
0.95;23.0163;0.0867;-0.0024000000000000002
0.96;22.8536;0.0868;-0.0023
0.97;21.881500000000003;0.0868;-0.001
0.98;20.7927;0.08660000000000001;-0.0008
0.99;20.342100000000002;0.0864;-0.0009000000000000001
1.0;19.896;0.0845;-0.0008
1.01;19.2468;0.0854;-0.0006000000000000001
1.02;18.593400000000003;0.0835;-0.0007
1.03;17.715400000000002;0.0834;-0.0007
1.04;16.9788;0.0828;-0.0007
1.05;16.3213;0.0825;-0.0008
1.06;15.251800000000001;0.08220000000000001;-0.0008
1.07;14.3321;0.0823;-0.0008
1.08;13.9451;0.0821;-0.0008
1.09;13.712000000000002;0.0819;-0.0008
1.1;13.5747;0.08080000000000001;-0.0008
1.11;13.4457;0.08170000000000001;-0.0007
1.12;13.179400000000001;0.0753;-0.0007
1.13;12.7216;0.0698;-0.0007
1.14;12.5593;0.0673;-0.0007
1.15;12.293000000000001;0.0669;-0.0008
1.16;12.068200000000001;0.0669;-0.0008
1.17;11.96;0.0669;-0.0009000000000000001
1.18;11.875200000000001;0.0669;-0.0009000000000000001
1.19;11.8583;0.06720000000000001;-0.0009000000000000001
1.2;11.857700000000001;0.0678;-0.0009000000000000001
1.21;11.860000000000001;0.0682;-0.001
1.22;11.862300000000001;0.0687;-0.001
1.23;11.947600000000001;0.06860000000000001;-0.0011
1.24;12.0058;0.06910000000000001;-0.0011
1.25;12.247200000000001;0.06910000000000001;-0.0011
1.26;11.514800000000001;0.06910000000000001;-0.0011
1.27;11.5481;0.06910000000000001;-0.0011
1.28;11.3317;0.06910000000000001;-0.0011
1.29;11.061200000000001;0.060500000000000005;-0.0012000000000000001
1.3;10.774000000000001;0.055400000000000005;-0.0012000000000000001
1.31;10.67;0.058;-0.0012000000000000001
1.32;10.3412;0.0538;-0.0012000000000000001
1.33;10.1789;0.0529;-0.0013000000000000002
1.34;10.012500000000001;0.051000000000000004;-0.0013000000000000002
1.35;9.7619;0.0482;-0.0013000000000000002
1.36;9.2314;0.0482;-0.0013000000000000002
1.37;9.0309;0.0451;-0.0013000000000000002
1.38;8.8847;0.0437;-0.0013000000000000002
1.39;8.609;0.0424;-0.0013000000000000002
1.4;8.3459;0.0424;-0.0014
1.41;8.0785;0.0396;-0.0014
1.42;7.8613;0.0392;-0.0015
1.43;7.5773;0.038700000000000005;-0.0015
1.44;7.264;0.038700000000000005;-0.0016
1.45;6.9131;0.038200000000000005;-0.0016
1.46;6.9131;0.0376;-0.0017000000000000001
1.47;6.6291;0.0376;-0.0021000000000000003
1.48;6.357600000000001;0.0371;-0.0024000000000000002
1.49;6.086;0.0368;-0.0024000000000000002
1.5;5.8438;0.0368;-0.0028
1.51;5.6099000000000006;0.0368;-0.0039000000000000003
1.52;5.3383;0.0369;-0.004200000000000001
1.53;5.0209;0.0369;-0.004200000000000001
1.54;4.67;0.0376;-0.004200000000000001
1.55;4.327500000000001;0.0376;-0.0041
1.56;4.327500000000001;0.041800000000000004;-0.004
1.57;4.01;0.041800000000000004;-0.0032
1.58;3.6884;0.041800000000000004;-0.0016
1.59;3.4127;0.041800000000000004;0.0024000000000000002
1.6;3.4023000000000003;0.0415;0.004200000000000001
1.61;3.4029000000000003;0.038200000000000005;0.008
1.62;3.4036;0.031200000000000002;0.008
1.63;3.4318;0.028200000000000003;0.0109
1.64;3.5589;0.0253;0.0131
1.65;3.5589;0.024900000000000002;0.0131
1.66;3.7469;0.0246;0.013300000000000001
1.67;3.8805;0.0229;0.013300000000000001
1.68;3.8805;0.0134;0.010700000000000001
1.69;4.269;0.0131;0.0058000000000000005
1.7;4.269;0.0128;0.0058000000000000005
1.71;4.8413;0.0128;0.0024000000000000002
1.72;4.9457;0.0117;0.0024000000000000002
1.73;4.9457;0.011600000000000001;-0.0006000000000000001
1.74;4.5196000000000005;0.011600000000000001;-0.016
1.75;4.5196000000000005;0.012;-0.016
1.76;3.7594000000000003;0.0123;-0.020200000000000003
1.77;3.2206;0.0137;-0.0221
1.78;3.2206;0.015000000000000001;-0.0229
1.79;2.7694;0.015700000000000002;-0.0229
1.8;2.7694;0.0158;-0.023
1.81;2.6608;0.0158;-0.023
1.82;2.6086;0.0158;-0.023
1.83;2.5867;0.015600000000000001;-0.0229
1.84;2.5647;0.015300000000000001;-0.0229
1.85;2.5647;0.0149;-0.0228
1.86;2.4770000000000003;0.0145;-0.022600000000000002
1.87;2.4770000000000003;0.0142;-0.022600000000000002
1.88;2.452;0.014;-0.022600000000000002
1.89;2.4269000000000003;0.0137;-0.022500000000000003
1.9;2.4269000000000003;0.0123;-0.022500000000000003
1.91;2.3077;0.0114;-0.0223
1.92;2.3078000000000003;0.0114;-0.0159
1.93;2.3078000000000003;0.011300000000000001;-0.015700000000000002
1.94;2.3103000000000002;0.011300000000000001;-0.015600000000000001
1.95;2.3642000000000003;0.0114;-0.0155
1.96;2.2974;0.0114;-0.015600000000000001
1.97;2.1053;0.0117;-0.0155
1.98;1.7878;0.012;-0.0155
1.99;1.6207;0.0128;-0.0155
2.0;1.4286;0.0137;-0.015600000000000001
2.01;1.2615;0.013900000000000001;-0.015600000000000001
2.02;1.0485;0.013900000000000001;-0.015600000000000001
2.03;1.0485;0.013900000000000001;-0.015600000000000001
2.04;0.873;0.013900000000000001;-0.0155
2.05;0.7728;0.0135;-0.0155
2.06;0.6976;0.0134;-0.0155
2.07;0.6976;0.0134;-0.0154
2.08;0.6266;0.013300000000000001;-0.0151
2.09;0.5681;0.013300000000000001;-0.0148
2.1;0.5221;0.0131;-0.0148
2.11;0.5221;0.0129;-0.014700000000000001
2.12;0.5188;0.0126;-0.014700000000000001
2.13;0.5174;0.0117;-0.014700000000000001
2.14;0.519;0.0117;-0.0142
2.15;0.5205000000000001;0.0098;-0.0137
2.16;0.5305;0.0097;-0.013300000000000001
2.17;0.5514;0.0097;-0.013300000000000001
2.18;0.5514;0.0097;-0.0129
2.19;0.5556;0.0098;-0.0125
2.2;0.5347000000000001;0.0102;-0.0123
2.21;0.5347000000000001;0.0102;-0.0123
2.22;0.5324;0.0102;-0.0119
2.23;0.5313;0.0102;-0.0119
2.24;0.5315;0.01;-0.011600000000000001
2.25;0.5317000000000001;0.009600000000000001;-0.011300000000000001
2.26;0.5347000000000001;0.0097;-0.0109
2.27;0.5639000000000001;0.0094;-0.0109
2.28;0.5639000000000001;0.0091;-0.0106
2.29;0.7811;0.0088;-0.0102
2.3;1.3743;0.008700000000000001;-0.0102
2.31;1.3743;0.008700000000000001;-0.0098
2.32;2.3308;0.008700000000000001;-0.0095
2.33;3.3208;0.008700000000000001;-0.0095
2.34;3.797;0.008700000000000001;-0.0094
2.35;3.797;0.008700000000000001;-0.0094
2.36;4.0267;0.0106;-0.007200000000000001
2.37;4.1353;0.010100000000000001;-0.007200000000000001
2.38;4.1353;0.011000000000000001;-0.0051
2.39;4.2398;0.012;-0.005
2.4;4.2941;0.012;-0.0046
2.41;4.3776;0.013000000000000001;-0.0046
2.42;4.3776;0.0135;-0.0043
2.43;4.427700000000001;0.013600000000000001;-0.0039000000000000003
2.44;4.4612;0.013600000000000001;-0.0039000000000000003
2.45;4.4612;0.013600000000000001;-0.0036000000000000003
2.46;4.482;0.0135;-0.0034000000000000002
2.47;4.4695;0.0131;-0.0032
2.48;4.3985;0.0128;-0.0032
2.49;4.3985;0.0126;-0.0028
2.5;4.319100000000001;0.0125;-0.0025
2.51;4.2398;0.0125;-0.0025
2.52;4.2398;0.0126;-0.0023
2.53;4.1855;0.0126;-0.0021000000000000003
2.54;4.1855;0.0131;-0.0021000000000000003
2.55;4.1395;0.0132;-0.0017000000000000001
2.56;4.0393;0.0129;-0.0017000000000000001
2.57;4.0393;0.0125;-0.0015
2.58;3.8513;0.0119;-0.001
2.59;3.8513;0.0106;-0.001
2.6;3.6216000000000004;0.0092;-0.0001
2.61;3.6216000000000004;0.0092;-0.0001
2.62;3.3835;0.0085;0.0008
2.63;3.3835;0.008400000000000001;0.0008
2.64;3.1579;0.0083;0.0016
2.65;3.1579;0.0083;0.0016
2.66;2.9198;0.008;0.002
2.67;2.7632000000000003;0.0076;0.002
2.68;2.6065;0.0067;0.0024000000000000002
2.69;2.6065;0.0067;0.0024000000000000002
2.7;2.3434;0.0064;0.0028
2.71;2.3434;0.0064;0.0028
2.72;2.1094;0.006;0.0032
2.73;2.1094;0.0056;0.0032
2.74;1.8839000000000001;0.0056;0.0033
2.75;1.8839000000000001;0.0053;0.0034000000000000002
2.76;1.6959000000000002;0.005200000000000001;0.0034000000000000002
2.77;1.6959000000000002;0.0051;0.0036000000000000003
2.78;1.5246000000000002;0.0051;0.0036000000000000003
2.79;1.5246000000000002;0.005;0.0039000000000000003
2.8;1.4077000000000002;0.005;0.0039000000000000003
2.81;1.4077000000000002;0.004200000000000001;0.004
2.82;1.3471;0.004200000000000001;0.004
2.83;1.2866;0.0036000000000000003;0.004200000000000001
2.84;1.2866;0.0023;0.004200000000000001
2.85;1.2114;0.0017000000000000001;0.0044
2.86;1.2114;0.0015;0.0044
2.87;1.2146000000000001;0.0014;0.0046
2.88;1.2177;0.0014;0.0046
2.89;1.2242;0.0013000000000000002;0.0046
2.9;1.2372;0.0013000000000000002;0.0047
2.91;1.2907;0.0012000000000000001;0.0048000000000000004
2.92;1.2907;0.0012000000000000001;0.005
2.93;1.4035;0.0011;0.0056
2.94;1.3743;0.0011;0.0095
2.95;1.4119000000000002;0.001;0.0097
2.96;1.4453;0.001;0.010100000000000001
2.97;1.4578;0.001;0.0099
2.98;1.4703000000000002;0.001;0.010100000000000001
2.99;1.4453;0.001;0.0102
3.0;1.4286;0.001;0.0105
3.01;1.3367;0.001;0.0109
3.02;1.2991000000000001;0.001;0.011300000000000001
3.03;1.2573;0.001;0.0115
3.04;1.2281;0.001;0.0117
3.05;1.1821000000000002;0.001;0.0119
3.06;1.0652000000000001;0.001;0.0123
3.07;0.9691000000000001;0.001;0.0126
3.08;0.9607;0.001;0.0129
3.09;0.9691000000000001;0.001;0.013000000000000001
3.1;0.9524;0.001;0.013300000000000001
3.11;0.9440000000000001;0.001;0.0134
3.12;0.9336000000000001;0.001;0.013600000000000001
3.13;0.9285;0.001;0.013800000000000002
3.14;0.9261;0.001;0.014
3.15;0.9255;0.001;0.014
3.16;0.9264;0.001;0.0143
3.17;0.9273;0.001;0.0137
3.18;0.9524;0.001;0.0135
3.19;1.0025;0.001;0.0135
3.2;1.0109000000000001;0.001;0.0135
3.21;0.9983000000000001;0.001;0.0135
3.22;0.9983000000000001;0.001;0.0135
3.23;0.9900000000000001;0.001;0.0137
3.24;0.9816;0.001;0.013600000000000001
3.25;0.9774;0.001;0.013800000000000002
3.26;0.9398000000000001;0.001;0.013900000000000001
3.27;0.9398000000000001;0.001;0.014
3.28;0.9231;0.001;0.0143
3.29;0.9191;0.001;0.0143
3.3;0.9172;0.0008;0.014400000000000001
3.31;0.9186000000000001;0.0007;0.0148
3.32;0.92;0.0007;0.0148
3.33;0.9231;0.0007;0.015000000000000001
3.34;0.9566;0.0007;0.015000000000000001
3.35;0.9566;0.0007;0.015300000000000001
3.36;1.1111;0.0007;0.015700000000000002
3.37;1.1111;0.0008;0.015700000000000002
3.38;1.3116;0.0008;0.0162
3.39;1.4703000000000002;0.0008;0.0162
3.4;1.4703000000000002;0.0008;0.016300000000000002
3.41;1.6583;0.0008;0.016900000000000002
3.42;1.6583;0.0008;0.016900000000000002
3.43;1.8839000000000001;0.0008;0.017
3.44;2.1178;0.0008;0.017
3.45;2.1178;0.0009000000000000001;0.017400000000000002
3.46;2.3183000000000002;0.0009000000000000001;0.017400000000000002
3.47;2.5188;0.0009000000000000001;0.0177
3.48;2.5856000000000003;0.0009000000000000001;0.0177
3.49;2.5856000000000003;0.0014;0.018000000000000002
3.5;2.7527;0.002;0.018500000000000003
3.51;2.7527;0.002;0.018500000000000003
3.52;2.878;0.0028;0.0189
3.53;2.9031000000000002;0.0028;0.0189
3.54;2.9031000000000002;0.0032;0.019
3.55;2.9323;0.0036000000000000003;0.019
3.56;2.9323;0.0036000000000000003;0.0194
3.57;2.9657;0.0039000000000000003;0.0196
3.58;2.9657;0.0039000000000000003;0.0196
3.59;2.9657;0.005;0.0199
3.6;2.9365;0.005;0.0199
3.61;2.9282000000000004;0.0051;0.02
3.62;2.9261;0.0051;0.020300000000000002
3.63;2.9250000000000003;0.005200000000000001;0.020300000000000002
3.64;2.9245;0.005200000000000001;0.0204
3.65;2.924;0.005200000000000001;0.0204
3.66;2.924;0.005200000000000001;0.0205
3.67;2.8655;0.005200000000000001;0.0205
3.68;2.8655;0.005200000000000001;0.0207
3.69;2.7903000000000002;0.005200000000000001;0.020800000000000003
3.7;2.7903000000000002;0.0053;0.020800000000000003
3.71;2.7652;0.0054;0.021
3.72;2.7485;0.0059;0.021
3.73;2.7485;0.0066;0.0212
3.74;2.6608;0.0073;0.0212
3.75;2.6608;0.007;0.021400000000000002
3.76;2.6065;0.0081;0.0219
3.77;2.6065;0.0094;0.0219
3.78;2.5606;0.010700000000000001;0.0219
3.79;2.5552;0.0108;0.0219
3.8;2.5554;0.010400000000000001;0.022000000000000002
3.81;2.5556;0.010100000000000001;0.022000000000000002
3.82;2.5563000000000002;0.009300000000000001;0.0223
3.83;2.5606;0.0078000000000000005;0.022600000000000002
3.84;2.5606;0.0092;0.022600000000000002
3.85;2.6149;0.007;0.0227
3.86;2.5982000000000003;0.007;0.0227
3.87;2.5982000000000003;0.0053;0.0229
3.88;2.5334000000000003;0.0051;0.0229
3.89;2.5178000000000003;0.0051;0.023
3.9;2.5101;0.005;0.0233
3.91;2.5138000000000003;0.005;0.0233
3.92;2.5175;0.005;0.0235
3.93;2.5272;0.0049;0.0235
3.94;2.5272;0.0048000000000000004;0.0236
3.95;2.4896000000000003;0.0046;0.023700000000000002
3.96;2.3538;0.0045000000000000005;0.0239
3.97;2.3173;0.0036000000000000003;0.0241
3.98;2.2807;0.0036000000000000003;0.0241
3.99;2.2556000000000003;0.0028;0.024200000000000003
4.0;2.2222;0.0017000000000000001;0.0244
4.01;2.1763;0.0016;0.0244
4.02;2.1721;0.0016;0.0245
4.03;2.1708000000000003;0.0016;0.0246
4.04;2.1731000000000003;0.0016;0.0247
4.05;2.1754000000000002;0.0016;0.024800000000000003
4.06;2.2473;0.0016;0.024900000000000002
4.07;2.3016;0.0014;0.0251
4.08;2.3016;0.0012000000000000001;0.0252
4.09;2.4144;0.0012000000000000001;0.0253
4.1;2.4561;0.0011;0.025400000000000002
4.11;2.452;0.0012000000000000001;0.0256
4.12;2.4812000000000003;0.0012000000000000001;0.0256
4.13;2.4812000000000003;0.0013000000000000002;0.0257
4.14;2.4854000000000003;0.0014;0.026000000000000002
4.15;2.4687;0.0017000000000000001;0.0261
4.16;2.4144;0.0016;0.0261
4.17;2.4144;0.0033;0.0264
4.18;2.3768000000000002;0.005;0.026500000000000003
4.19;2.3475;0.0103;0.0267
4.2;2.3266;0.0106;0.0267
4.21;2.3016;0.010700000000000001;0.0268
4.22;2.3016;0.010700000000000001;0.027
4.23;2.2473;0.010400000000000001;0.027
4.24;2.2055000000000002;0.010100000000000001;0.027100000000000003
4.25;2.1470000000000002;0.0089;0.027200000000000002
4.26;2.0551;0.0098;0.027200000000000002
4.27;2.0551;0.0078000000000000005;0.0273
4.28;1.675;0.0078000000000000005;0.0273
4.29;1.6482;0.007500000000000001;0.0273
4.3;1.645;0.006200000000000001;0.0274
4.31;1.6457000000000002;0.006200000000000001;0.0275
4.32;1.6465;0.0055000000000000005;0.028300000000000002
4.33;1.6903000000000001;0.0048000000000000004;0.028300000000000002
4.34;1.7794;0.0048000000000000004;0.028900000000000002
4.35;1.7962;0.0043;0.028900000000000002
4.36;1.7962;0.0039000000000000003;0.0291
4.37;1.8003;0.0031000000000000003;0.0291
4.38;1.8003;0.0023;0.029300000000000003
4.39;1.8338;0.0023;0.0296
4.4;1.8212000000000002;0.002;0.0296
4.41;1.8212000000000002;0.002;0.029900000000000003
4.42;1.8129000000000002;0.0017000000000000001;0.030100000000000002
4.43;1.8129000000000002;0.0016;0.030100000000000002
4.44;1.746;0.0016;0.0304
4.45;1.7251;0.0015;0.0304
4.46;1.7251;0.0015;0.030600000000000002
4.47;1.6876;0.0015;0.031100000000000003
4.48;1.6541000000000001;0.0015;0.031100000000000003
4.49;1.6541000000000001;0.0015;0.0317
4.5;1.5664;0.0015;0.032
4.51;1.5664;0.0016;0.032
4.52;1.5581;0.0016;0.032100000000000004
4.53;1.5330000000000001;0.0017000000000000001;0.032100000000000004
4.54;1.5330000000000001;0.0018000000000000002;0.0323
4.55;1.4703000000000002;0.0018000000000000002;0.032600000000000004
4.56;1.4703000000000002;0.0019;0.032600000000000004
4.57;1.3492;0.002;0.0329
4.58;1.3012000000000001;0.002;0.0329
4.59;1.2774;0.0023;0.0335
4.6;1.2716;0.0023;0.0335
4.61;1.2688000000000001;0.0036000000000000003;0.034
4.62;1.2675;0.0045000000000000005;0.0346
4.63;1.2662;0.0053;0.0346
4.64;1.2698;0.0061;0.035
4.65;1.266;0.006900000000000001;0.035
4.66;1.2654;0.0166;0.0354
4.67;1.2665;0.021;0.0354
4.68;1.2676;0.025400000000000002;0.0357
4.69;1.2698;0.024900000000000002;0.036000000000000004
4.7;1.2698;0.0269;0.036000000000000004
4.71;1.3074000000000001;0.027800000000000002;0.036000000000000004
4.72;1.4829;0.0281;0.0361
4.73;1.4829;0.0285;0.0362
4.74;2.1178;0.028800000000000003;0.0364
4.75;2.1178;0.0292;0.0364
4.76;4.6742;0.030600000000000002;0.032600000000000004
4.77;4.9373000000000005;0.0307;0.0324
4.78;4.9373000000000005;0.030600000000000002;0.0323
4.79;6.274;0.030500000000000003;0.0325
4.8;6.5957;0.0304;0.031900000000000005
4.81;4.7744;0.0269;0.031900000000000005
4.82;4.4528;0.0234;0.031900000000000005
4.83;3.797;0.0233;0.032
4.84;3.584;0.023100000000000002;0.0322
4.85;3.137;0.0173;0.0327
4.86;2.7047000000000003;0.015600000000000001;0.0327
4.87;2.4885;0.014;0.035300000000000005
4.88;2.2723;0.0128;0.035300000000000005
4.89;2.2765;0.0064;0.0339
4.9;1.8296000000000001;0.0048000000000000004;0.0339
4.91;1.3241;0.0045000000000000005;0.033800000000000004
4.92;1.2698;0.0044;0.0339
4.93;1.2072;0.0044;0.0339
4.94;1.1988;0.0044;0.034
4.95;1.1988;0.0046;0.0341
4.96;1.1404;0.0092;0.0345
4.97;1.1135000000000002;0.0114;0.034800000000000005
4.98;1.1001;0.0125;0.0351
4.99;1.0961;0.012100000000000001;0.038700000000000005
5.0;1.1161;0.0117;0.0391
5.01;1.1362;0.010700000000000001;0.039400000000000004
5.02;1.2782;0.008700000000000001;0.0398
5.03;1.5288000000000002;0.0086;0.040100000000000004
5.04;1.7001000000000002;0.0086;0.0402
5.05;1.7001000000000002;0.0085;0.0402
5.06;1.9173;0.008400000000000001;0.0402
5.07;2.4269000000000003;0.0081;0.0402
5.08;2.5439000000000003;0.007500000000000001;0.0403
5.09;1.9006;0.007;0.040600000000000004
5.1;1.5852000000000002;0.0056;0.0397
5.11;1.4881;0.0051;0.0396
5.12;1.391;0.0049;0.0395
5.13;1.3393000000000002;0.0048000000000000004;0.0395
5.14;1.3195000000000001;0.0048000000000000004;0.039400000000000004
5.15;1.332;0.0046;0.039400000000000004
5.16;1.3444;0.0046;0.039400000000000004
5.17;1.4369;0.0046;0.039400000000000004
5.18;1.5915000000000001;0.0047;0.039400000000000004
5.19;1.6667;0.0048000000000000004;0.0395
5.2;1.9883000000000002;0.0051;0.0393
5.21;2.6023;0.0092;0.0392
5.22;2.7068000000000003;0.0167;0.0392
5.23;2.8404000000000003;0.0145;0.0392
5.24;3.2373000000000003;0.0211;0.0391
5.25;2.9929;0.024;0.0392
5.26;3.0052000000000003;0.027;0.0376
5.27;3.0174000000000003;0.023700000000000002;0.0369
5.28;3.1036;0.0403;0.0367
